Folder: ROCO504/Force Calculations/Tensile Testing Results (part 2)

File: Braided Nylon - 1.csv
Time,Displacement,Force
(s),(mm),(kN)
"0.0000","0.0001","0.0000"
"0.3000","0.4928","0.0041"
"0.6000","1.0017","0.0089"
"0.9000","1.5032","0.0140"
"1.2000","2.0033","0.0193"
"1.5000","2.5033","0.0246"
"1.8000","3.0035","0.0291"
"2.1000","3.5033","0.0324"
"2.4000","4.0032","0.0352"
"2.7000","4.5033","0.0382"
"3.0000","5.0036","0.0412"
"3.3000","5.5036","0.0441"
"3.6000","6.0033","0.0474"
"3.9000","6.5035","0.0509"
"4.2000","7.0035","0.0551"
"4.5000","7.5033","0.0570"
"4.8000","8.0032","0.0573"
"5.1000","8.5033","0.0562"
"5.4000","9.0035","0.0581"
"5.7000","9.5035","0.0589"
"6.0000","10.0032","0.0598"
"6.3000","10.5035","0.0600"
"6.6000","11.0036","0.0604"
"6.9000","11.5033","0.0601"
"7.2000","12.0033","0.0606"
"7.5000","12.5035","0.0608"
"7.8000","13.0036","0.0614"
"8.1000","13.5036","0.0615"
"8.4000","14.0035","0.0620"
"8.7000","14.5035","0.0624"
"9.0000","15.0035","0.0628"
"9.3000","15.5035","0.0629"
"9.6000","16.0032","0.0636"
"9.9000","16.5032","0.0645"
"10.2000","17.0035","0.0656"
"10.5000","17.5035","0.0657"
"10.8000","18.0032","0.0669"
"11.1000","18.5035","0.0673"
"11.4000","19.0035","0.0681"
"11.7000","19.5033","0.0686"
"12.0000","20.0032","0.0698"
"12.3000","20.5035","0.0701"
"12.6000","21.0036","0.0709"
"12.9000","21.5036","0.0708"
"13.2000","22.0035","0.0714"
"13.5000","22.5035","0.0720"
"13.8000","23.0035","0.0721"
"14.1000","23.5035","0.0727"
"14.4000","24.0032","0.0726"
"14.7000","24.5033","0.0731"
"15.0000","25.0035","0.0737"
"15.3000","25.5035","0.0729"
"15.6000","26.0032","0.0717"
"15.9000","26.5035","0.0724"
"16.2000","27.0035","0.0702"
"16.5000","27.5035","0.0695"
"16.8000","28.0032","0.0705"
"17.1000","28.5035","0.0699"
"17.4000","29.0037","0.0700"
"17.7000","29.5036","0.0707"
"18.0000","30.0035","0.0716"
"18.3000","30.5035","0.0704"
"18.6000","31.0035","0.0708"
"18.9000","31.5033","0.0732"
"19.2000","32.0031","0.0750"
"19.5000","32.5033","0.0759"
"19.8000","33.0035","0.0765"
"20.1000","33.5035","0.0765"
"20.4000","34.0033","0.0760"
"20.7000","34.5035","0.0767"
"21.0000","35.0035","0.0788"
"21.3000","35.5035","0.0796"
"21.6000","36.0033","0.0796"
"21.9000","36.5033","0.0794"
"22.2000","37.0036","0.0791"
"22.5000","37.5036","0.0783"
"22.8000","38.0033","0.0779"
"23.1000","38.5035","0.0786"
"23.4000","39.0036","0.0794"
"23.7000","39.5035","0.0802"
"24.0000","40.0032","0.0810"
"24.3000","40.5033","0.0812"
"24.6000","41.0035","0.0814"
"24.9000","41.5035","0.0818"
"25.2000","42.0033","0.0825"
"25.5000","42.5033","0.0829"
"25.8000","43.0035","0.0833"
"26.1000","43.5035","0.0831"
"26.4000","44.0032","0.0831"
"26.7000","44.5035","0.0835"
"27.0000","45.0036","0.0835"
"27.3000","45.5036","0.0836"
"27.6000","46.0033","0.0837"
"27.9000","46.5035","0.0838"
"28.2000","47.0035","0.0842"
"28.5000","47.5035","0.0842"
"28.8000","48.0032","0.0846"
"29.1000","48.5033","0.0852"
"29.4000","49.0036","0.0853"
"29.7000","49.5035","0.0860"
"30.0000","50.0033","0.0864"
"30.3000","50.5035","0.0858"
"30.6000","51.0036","0.0872"
"30.9000","51.5035","0.0884"
"31.2000","52.0033","0.0891"
"31.5000","52.5035","0.0892"
"31.8000","53.0036","0.0894"
"32.1000","53.5035","0.0887"
"32.4000","54.0035","0.0898"
"32.7000","54.5035","0.0919"
"33.0000","55.0035","0.0927"
"33.3000","55.5035","0.0919"
"33.6000","56.0032","0.0918"
"33.9000","56.5033","0.0926"
"34.2000","57.0035","0.0937"
"34.5000","57.5033","0.0952"
"34.8000","58.0033","0.0958"
"35.1000","58.5035","0.0951"
"35.4000","59.0036","0.0954"
"35.7000","59.5035","0.0971"
"36.0000","60.0033","0.0985"
"36.3000","60.5035","0.0991"
"36.6000","61.0036","0.0989"
"36.9000","61.5036","0.0973"
"37.2000","62.0033","0.0961"
"37.5000","62.5035","0.0962"
"37.8000","63.0036","0.0975"
"38.1000","63.5033","0.0988"
"38.4000","64.0031","0.0992"
"38.7000","64.5033","0.0982"
"39.0000","65.0035","0.0974"
"39.3000","65.5035","0.0981"
"39.6000","66.0032","0.0993"
"39.9000","66.5033","0.1000"
"40.2000","67.0034","0.1001"
"40.5000","67.5034","0.1006"
"40.8000","68.0032","0.1015"
"41.1000","68.5035","0.1020"
"41.4000","69.0037","0.1020"
"41.7000","69.5036","0.1004"
"42.0000","70.0035","0.0999"
"42.3000","70.5036","0.1010"
"42.6000","71.0037","0.1030"
"42.9000","71.5035","0.1035"
"43.2000","72.0032","0.1010"
"43.5000","72.5033","0.1008"
"43.8000","73.0035","0.1032"
"44.1000","73.5035","0.1027"
"44.4000","74.0032","0.1005"
"44.7000","74.5033","0.1017"
"45.0000","75.0035","0.1019"
"45.3000","75.5035","0.1020"
"45.6000","76.0035","0.1009"
"45.9000","76.5035","0.0993"
"46.2000","77.0036","0.0984"
"46.5000","77.5034","0.0987"
"46.8000","78.0033","0.1009"
"47.1000","78.5034","0.1010"
"47.4000","79.0035","0.0976"
"47.7000","79.5035","0.0994"
"48.0000","80.0033","0.1023"
"48.3000","80.5033","0.1011"
"48.6000","81.0034","0.0966"
"48.9000","81.5034","0.0992"
"49.2000","82.0032","0.1016"
"49.5000","82.5035","0.0972"
"49.8000","83.0036","0.0980"
"50.1000","83.5035","0.1010"
"50.4000","84.0033","0.1032"
"50.7000","84.5035","0.1027"
"51.0000","85.0037","0.0971"
"51.3000","85.5034","0.1003"
"51.6000","86.0035","0.1037"
"51.9000","86.5035","0.1050"
"52.2000","87.0036","0.1015"
"52.5000","87.5035","0.1022"
"52.8000","88.0033","0.1031"
"53.1000","88.5033","0.1034"
"53.4000","89.0036","0.1059"
"53.7000","89.5034","0.1044"
"54.0000","90.0033","0.1028"
"54.3000","90.5033","0.1057"
"54.6000","91.0035","0.1075"
"54.9000","91.5035","0.1074"
"55.2000","92.0033","0.1043"
"55.5000","92.5034","0.1066"
"55.8000","93.0037","0.1079"
"56.1000","93.5036","0.1098"
"56.4000","94.0033","0.1103"
"56.7000","94.5035","0.1091"
"57.0000","95.0035","0.1088"
"57.3000","95.5033","0.1078"
"57.6000","96.0033","0.1079"
"57.9000","96.5033","0.1094"
"58.2000","97.0036","0.1112"
"58.5000","97.5035","0.1138"
"58.8000","98.0033","0.1161"
"59.1000","98.5035","0.1166"
"59.4000","99.0035","0.1145"
"59.7000","99.5036","0.1134"
"60.0000","100.0033","0.1121"
"60.3000","100.5034","0.1145"
"60.6000","101.0036","0.1186"
"60.9000","101.5035","0.1231"
"61.2000","102.0033","0.1271"
"61.5000","102.5033","0.1272"
"61.8000","103.0034","0.1151"
"62.1000","103.5033","0.1204"
"62.4000","104.0033","0.1266"
"62.7000","104.5033","0.1291"
"63.0000","105.0036","0.1189"
"63.3000","105.5035","0.1184"
"63.6000","106.0032","0.1248"
"63.9000","106.5033","0.1287"
"64.2000","107.0036","0.1288"
"64.5000","107.5034","0.1184"
"64.8000","108.0033","0.1173"
"65.1000","108.5035","0.1225"
"65.4000","109.0037","0.1152"
"65.7000","109.5036","0.1149"
"66.0000","110.0035","0.1197"
"66.3000","110.5033","0.1209"
"66.6000","111.0034","0.1131"
"66.9000","111.5033","0.1178"
"67.2000","112.0031","0.1233"
"67.5000","112.5033","0.1266"
"67.8000","113.0036","0.1285"
"68.1000","113.5035","0.1200"
"68.4000","114.0033","0.1262"
"68.7000","114.5034","0.1312"
"69.0000","115.0034","0.1360"
"69.3000","115.5035","0.1398"
"69.6000","116.0033","0.1293"
"69.9000","116.5036","0.1235"
"70.2000","117.0037","0.1298"
"70.5000","117.5036","0.1353"
"70.8000","118.0033","0.1253"
"71.1000","118.5034","0.1207"
"71.4000","119.0036","0.1234"
"71.7000","119.5033","0.1301"
"72.0000","120.0032","0.1331"
"72.3000","120.5035","0.1377"
"72.6000","121.0036","0.1392"
"72.9000","121.5034","0.1419"
"73.2000","122.0033","0.1441"
"73.5000","122.5033","0.1451"
"73.8000","123.0035","0.1500"
"74.1000","123.5035","0.1547"
"74.4000","124.0032","0.1567"
"74.7000","124.5033","0.1549"
"75.0000","125.0037","0.1551"
"75.3000","125.5036","0.1607"
"75.6000","126.0034","0.1657"
"75.9000","126.5034","0.1710"
"76.2000","127.0036","0.1767"
"76.5000","127.5033","0.1825"
"76.8000","128.0032","0.1875"
"77.1000","128.5034","0.1926"
"77.4000","129.0036","0.1975"
"77.7000","129.5036","0.2020"
"78.0000","130.0033","0.2058"
"78.3000","130.5034","0.2096"
"78.6000","131.0036","0.2082"
"78.9000","131.5034","0.1954"
"79.2000","132.0033","0.2040"
"79.5000","132.5034","0.2151"
"79.8000","133.0036","0.2246"
"80.1000","133.5036","0.2327"
"80.2200","133.7042","0.1302"

File: Braided Nylon - 2.csv
Time,Displacement,Force
(s),(mm),(kN)
"0.0000","0.0000","-0.0004"
"0.2000","0.3161","0.0146"
"0.4000","0.6636","0.0202"
"0.6000","1.0015","0.0234"
"0.8000","1.3361","0.0251"
"1.0000","1.6699","0.0275"
"1.2000","2.0032","0.0302"
"1.4000","2.3365","0.0330"
"1.6000","2.6697","0.0352"
"1.8000","3.0032","0.0371"
"2.0000","3.3365","0.0376"
"2.2000","3.6699","0.0396"
"2.4000","4.0032","0.0428"
"2.6000","4.3367","0.0450"
"2.8000","4.6700","0.0470"
"3.0000","5.0035","0.0485"
"3.2000","5.3367","0.0494"
"3.4000","5.6700","0.0499"
"3.6000","6.0033","0.0513"
"3.8000","6.3365","0.0541"
"4.0000","6.6699","0.0551"
"4.2000","7.0032","0.0557"
"4.4000","7.3365","0.0555"
"4.6000","7.6701","0.0548"
"4.8000","8.0032","0.0563"
"5.0000","8.3367","0.0573"
"5.2000","8.6700","0.0572"
"5.4000","9.0033","0.0559"
"5.6000","9.3367","0.0528"
"5.8000","9.6700","0.0536"
"6.0000","10.0032","0.0558"
"6.2000","10.3367","0.0566"
"6.4000","10.6697","0.0567"
"6.6000","11.0032","0.0569"
"6.8000","11.3367","0.0558"
"7.0000","11.6699","0.0556"
"7.2000","12.0033","0.0564"
"7.4000","12.3367","0.0580"
"7.6000","12.6699","0.0590"
"7.8000","13.0035","0.0600"
"8.0000","13.3365","0.0597"
"8.2000","13.6700","0.0589"
"8.4000","14.0035","0.0584"
"8.6000","14.3365","0.0595"
"8.8000","14.6699","0.0612"
"9.0000","15.0033","0.0611"
"9.2000","15.3365","0.0595"
"9.4000","15.6701","0.0590"
"9.6000","16.0032","0.0610"
"9.8000","16.3365","0.0622"
"10.0000","16.6700","0.0630"
"10.2000","17.0033","0.0625"
"10.4000","17.3367","0.0621"
"10.6000","17.6701","0.0625"
"10.8000","18.0032","0.0632"
"11.0000","18.3365","0.0622"
"11.2000","18.6697","0.0619"
"11.4000","19.0032","0.0622"
"11.6000","19.3365","0.0632"
"11.8000","19.6700","0.0645"
"12.0000","20.0032","0.0656"
"12.2000","20.3367","0.0664"
"12.4000","20.6699","0.0674"
"12.6000","21.0035","0.0667"
"12.8000","21.3365","0.0644"
"13.0000","21.6700","0.0640"
"13.2000","22.0033","0.0668"
"13.4000","22.3365","0.0686"
"13.6000","22.6699","0.0688"
"13.8000","23.0033","0.0678"
"14.0000","23.3365","0.0663"
"14.2000","23.6700","0.0665"
"14.4000","24.0032","0.0679"
"14.6000","24.3367","0.0677"
"14.8000","24.6700","0.0674"
"15.0000","25.0033","0.0684"
"15.2000","25.3368","0.0695"
"15.4000","25.6700","0.0707"
"15.6000","26.0031","0.0715"
"15.8000","26.3367","0.0701"
"16.0000","26.6699","0.0704"
"16.2000","27.0033","0.0728"
"16.4000","27.3367","0.0731"
"16.6000","27.6699","0.0731"
"16.8000","28.0032","0.0726"
"17.0000","28.3367","0.0700"
"17.2000","28.6699","0.0707"
"17.4000","29.0036","0.0731"
"17.6000","29.3365","0.0732"
"17.8000","29.6700","0.0724"
"18.0000","30.0033","0.0726"
"18.2000","30.3367","0.0735"
"18.4000","30.6699","0.0745"
"18.6000","31.0035","0.0745"
"18.8000","31.3365","0.0738"
"19.0000","31.6700","0.0735"
"19.2000","32.0032","0.0743"
"19.4000","32.3367","0.0758"
"19.6000","32.6700","0.0767"
"19.8000","33.0033","0.0758"
"20.0000","33.3367","0.0757"
"20.2000","33.6701","0.0755"
"20.4000","34.0032","0.0756"
"20.6000","34.3367","0.0762"
"20.8000","34.6699","0.0769"
"21.0000","35.0032","0.0778"
"21.2000","35.3367","0.0785"
"21.4000","35.6699","0.0789"
"21.6000","36.0033","0.0793"
"21.8000","36.3367","0.0791"
"22.0000","36.6700","0.0786"
"22.2000","37.0035","0.0786"
"22.4000","37.3365","0.0789"
"22.6000","37.6700","0.0793"
"22.8000","38.0033","0.0793"
"23.0000","38.3365","0.0794"
"23.2000","38.6699","0.0800"
"23.4000","39.0033","0.0802"
"23.6000","39.3364","0.0799"
"23.8000","39.6700","0.0794"
"24.0000","40.0032","0.0787"
"24.2000","40.3368","0.0784"
"24.4000","40.6701","0.0784"
"24.6000","41.0033","0.0784"
"24.8000","41.3367","0.0775"
"25.0000","41.6701","0.0773"
"25.2000","42.0032","0.0774"
"25.4000","42.3367","0.0785"
"25.6000","42.6697","0.0795"
"25.8000","43.0032","0.0808"
"26.0000","43.3365","0.0820"
"26.2000","43.6699","0.0833"
"26.4000","44.0032","0.0847"
"26.6000","44.3368","0.0853"
"26.8000","44.6699","0.0851"
"27.0000","45.0035","0.0845"
"27.2000","45.3367","0.0835"
"27.4000","45.6700","0.0831"
"27.6000","46.0033","0.0836"
"27.8000","46.3367","0.0842"
"28.0000","46.6699","0.0842"
"28.2000","47.0033","0.0846"
"28.4000","47.3365","0.0852"
"28.6000","47.6699","0.0857"
"28.8000","48.0032","0.0867"
"29.0000","48.3365","0.0877"
"29.2000","48.6700","0.0884"
"29.4000","49.0033","0.0884"
"29.6000","49.3367","0.0872"
"29.8000","49.6701","0.0853"
"30.0000","50.0032","0.0862"
"30.2000","50.3367","0.0885"
"30.4000","50.6699","0.0897"
"30.6000","51.0032","0.0907"
"30.8000","51.3367","0.0911"
"31.0000","51.6700","0.0907"
"31.2000","52.0033","0.0898"
"31.4000","52.3367","0.0891"
"31.6000","52.6699","0.0897"
"31.8000","53.0036","0.0910"
"32.0000","53.3365","0.0915"
"32.2000","53.6700","0.0898"
"32.4000","54.0033","0.0875"
"32.6000","54.3365","0.0878"
"32.8000","54.6699","0.0900"
"33.0000","55.0033","0.0924"
"33.2000","55.3364","0.0943"
"33.4000","55.6701","0.0953"
"33.6000","56.0033","0.0927"
"33.8000","56.3367","0.0880"
"34.0000","56.6700","0.0884"
"34.2000","57.0033","0.0880"
"34.4000","57.3365","0.0882"
"34.6000","57.6701","0.0870"
"34.8000","58.0032","0.0872"
"35.0000","58.3367","0.0903"
"35.2000","58.6700","0.0924"
"35.4000","59.0032","0.0914"
"35.6000","59.3367","0.0893"
"35.8000","59.6700","0.0889"
"36.0000","60.0032","0.0896"
"36.2000","60.3367","0.0921"
"36.4000","60.6699","0.0943"
"36.6000","61.0033","0.0953"
"36.8000","61.3367","0.0940"
"37.0000","61.6701","0.0926"
"37.2000","62.0033","0.0933"
"37.4000","62.3367","0.0947"
"37.6000","62.6698","0.0961"
"37.8000","63.0033","0.0981"
"38.0000","63.3365","0.0999"
"38.2000","63.6700","0.1010"
"38.4000","64.0032","0.1005"
"38.6000","64.3367","0.0989"
"38.8000","64.6700","0.0984"
"39.0000","65.0033","0.0988"
"39.2000","65.3367","0.0984"
"39.4000","65.6701","0.0989"
"39.6000","66.0032","0.1006"
"39.8000","66.3367","0.1024"
"40.0000","66.6697","0.1041"
"40.2000","67.0032","0.1058"
"40.4000","67.3367","0.1071"
"40.6000","67.6700","0.1072"
"40.8000","68.0033","0.1069"
"41.0000","68.3368","0.1076"
"41.2000","68.6699","0.1094"
"41.4000","69.0035","0.1114"
"41.6000","69.3367","0.1127"
"41.8000","69.6700","0.1130"
"42.0000","70.0033","0.1117"
"42.2000","70.3365","0.1090"
"42.4000","70.6699","0.1125"
"42.6000","71.0033","0.1162"
"42.8000","71.3364","0.1190"
"43.0000","71.6700","0.1215"
"43.2000","72.0032","0.1233"
"43.4000","72.3367","0.1233"
"43.6000","72.6700","0.1180"
"43.8000","73.0035","0.1148"
"44.0000","73.3367","0.1181"
"44.2000","73.6700","0.1218"
"44.4000","74.0032","0.1249"
"44.6000","74.3367","0.1276"
"44.8000","74.6697","0.1304"
"45.0000","75.0032","0.1342"
"45.2000","75.3366","0.1380"
"45.4000","75.6699","0.1407"
"45.6000","76.0033","0.1417"
"45.8000","76.3368","0.1381"
"46.0000","76.6700","0.1217"
"46.2000","77.0035","0.1243"
"46.4000","77.3365","0.1322"
"46.6000","77.6700","0.1380"
"46.8000","78.0032","0.1397"
"47.0000","78.3365","0.1377"
"47.2000","78.6700","0.1311"
"47.4000","79.0035","0.1164"
"47.6000","79.3365","0.1165"
"47.8000","79.6700","0.1237"
"48.0000","80.0032","0.1324"
"48.2000","80.3367","0.1375"
"48.4000","80.6700","0.1379"
"48.6000","81.0033","0.1338"
"48.8000","81.3368","0.1194"
"49.0000","81.6701","0.1179"
"49.2000","82.0031","0.1245"
"49.4000","82.3367","0.1287"
"49.6000","82.6699","0.1291"
"49.8000","83.0032","0.1311"
"50.0000","83.3367","0.1241"
"50.2000","83.6700","0.1159"
"50.4000","84.0033","0.1232"
"50.6000","84.3368","0.1300"
"50.8000","84.6699","0.1336"
"51.0000","85.0034","0.1331"
"51.2000","85.3367","0.1217"
"51.4000","85.6699","0.1244"
"51.6000","86.0033","0.1264"
"51.8000","86.3365","0.1282"
"52.0000","86.6699","0.1247"
"52.2000","87.0033","0.1155"
"52.4000","87.3365","0.1192"
"52.6000","87.6700","0.1253"
"52.8000","88.0032","0.1285"
"53.0000","88.3367","0.1271"
"53.2000","88.6700","0.1092"
"53.4000","89.0033","0.1168"
"53.6000","89.3365","0.1230"
"53.8000","89.6700","0.1260"
"54.0000","90.0033","0.1316"
"54.2000","90.3366","0.1359"
"54.4000","90.6699","0.1399"
"54.6000","91.0032","0.1475"
"54.8000","91.3365","0.1547"
"55.0000","91.6699","0.1606"
"55.2000","92.0032","0.1666"
"55.4000","92.3367","0.1732"
"55.6000","92.6697","0.1794"
"55.8000","93.0033","0.1848"
"56.0000","93.3365","0.1902"
"56.2000","93.6700","0.1945"
"56.4000","94.0033","0.1955"
"56.6000","94.3365","0.1801"
"56.8000","94.6700","0.1838"
"57.0000","95.0033","0.1914"
"57.2000","95.3364","0.1973"
"57.4000","95.6701","0.2015"
"57.6000","96.0032","0.2042"
"57.8000","96.3367","0.2059"
"58.0000","96.6700","0.2043"
"58.2000","97.0033","0.1811"
"58.4000","97.3366","0.1918"
"58.6000","97.6700","0.2014"
"58.8000","98.0031","0.2104"
"59.0000","98.3367","0.2191"
"59.2000","98.6697","0.2270"
"59.4000","99.0032","0.2332"
"59.5040","99.1773","0.1369"

File: Unbraided - 1.csv
Time,Displacement,Force
(s),(mm),(kN)
"0.0000","0.0000","0.0000"
"1.2000","2.0031","0.0024"
"2.4000","4.0031","0.0049"
"3.6000","6.0031","0.0070"
"4.8000","8.0031","0.0087"
"6.0000","10.0032","0.0101"
"7.2000","12.0029","0.0114"
"8.4000","14.0031","0.0125"
"9.6000","16.0031","0.0134"
"10.8000","18.0032","0.0143"
"12.0000","20.0031","0.0151"
"13.2000","22.0032","0.0158"
"14.4000","24.0031","0.0165"
"15.6000","26.0032","0.0171"
"16.8000","28.0029","0.0177"
"18.0000","30.0031","0.0182"
"19.2000","32.0032","0.0187"
"20.4000","34.0032","0.0192"
"21.6000","36.0031","0.0197"
"22.8000","38.0031","0.0201"
"24.0000","40.0031","0.0205"
"25.2000","42.0032","0.0209"
"26.4000","44.0031","0.0213"
"27.6000","46.0031","0.0217"
"28.8000","48.0031","0.0222"
"30.0000","50.0032","0.0225"
"31.2000","52.0031","0.0229"
"32.4000","54.0032","0.0233"
"33.6000","56.0031","0.0236"
"34.8000","58.0032","0.0240"
"36.0000","60.0031","0.0244"
"37.2000","62.0031","0.0247"
"38.4000","64.0032","0.0251"
"39.6000","66.0032","0.0254"
"40.8000","68.0029","0.0258"
"42.0000","70.0031","0.0261"
"43.2000","72.0031","0.0265"
"44.4000","74.0032","0.0268"
"45.6000","76.0031","0.0272"
"46.8000","78.0031","0.0275"
"48.0000","80.0032","0.0278"
"49.2000","82.0032","0.0282"
"50.4000","84.0031","0.0285"
"51.6000","86.0031","0.0289"
"52.8000","88.0031","0.0293"
"54.0000","90.0032","0.0297"
"55.2000","92.0031","0.0300"
"56.4000","94.0032","0.0304"
"57.6000","96.0032","0.0309"
"58.8000","98.0031","0.0313"
"60.0000","100.0031","0.0318"
"61.2000","102.0031","0.0322"
"62.4000","104.0031","0.0327"
"63.6000","106.0032","0.0332"
"64.8000","108.0029","0.0337"
"66.0000","110.0031","0.0341"
"67.2000","112.0031","0.0347"
"68.4000","114.0032","0.0352"
"69.6000","116.0029","0.0357"
"70.8000","118.0031","0.0363"
"72.0000","120.0031","0.0368"
"73.2000","122.0031","0.0374"
"74.4000","124.0031","0.0380"
"75.6000","126.0032","0.0387"
"76.8000","128.0031","0.0393"
"78.0000","130.0032","0.0399"
"79.2000","132.0030","0.0401"
"80.4000","134.0032","0.0369"
"81.6000","136.0029","0.0367"
"82.8000","138.0032","0.0370"
"84.0000","140.0030","0.0376"
"85.2000","142.0031","0.0382"
"86.4000","144.0030","0.0388"
"87.6000","146.0032","0.0395"
"88.8000","148.0030","0.0403"
"90.0000","150.0031","0.0411"
"91.2000","152.0030","0.0420"
"92.4000","154.0032","0.0429"
"93.6000","156.0029","0.0438"
"94.8000","158.0031","0.0447"
"96.0000","160.0030","0.0455"
"97.2000","162.0032","0.0463"
"98.4000","164.0029","0.0471"
"99.6000","166.0032","0.0479"
"100.8000","168.0030","0.0487"
"102.0000","170.0032","0.0494"
"103.2000","172.0031","0.0501"
"104.4000","174.0030","0.0507"
"105.6000","176.0030","0.0512"
"106.8000","178.0032","0.0513"
"108.0000","180.0031","0.0512"
"109.2000","182.0030","0.0514"
"110.4000","184.0032","0.0524"
"111.6000","186.0031","0.0532"
"112.8000","188.0030","0.0537"
"114.0000","190.0030","0.0538"
"115.2000","192.0030","0.0540"
"116.4000","194.0032","0.0548"
"117.6000","196.0030","0.0558"
"118.8000","198.0030","0.0569"
"120.0000","200.0032","0.0579"
"121.2000","202.0032","0.0589"
"122.4000","204.0030","0.0598"
"123.6000","206.0030","0.0607"
"124.8000","208.0031","0.0615"
"126.0000","210.0030","0.0624"
"127.2000","212.0029","0.0633"
"128.4000","214.0030","0.0641"
"129.6000","216.0031","0.0650"
"130.8000","218.0032","0.0658"
"132.0000","220.0029","0.0667"
"133.2000","222.0030","0.0676"
"134.4000","224.0030","0.0685"
"135.6000","226.0032","0.0694"
"136.8000","228.0030","0.0703"
"138.0000","230.0030","0.0711"
"139.2000","232.0032","0.0718"
"140.4000","234.0032","0.0725"
"141.6000","236.0030","0.0731"
"142.8000","238.0031","0.0736"
"144.0000","240.0030","0.0741"
"145.2000","242.0032","0.0746"
"146.4000","244.0032","0.0751"
"147.6000","246.0030","0.0757"
"148.8000","248.0032","0.0764"
"150.0000","250.0030","0.0771"
"151.2000","252.0030","0.0779"
"152.4000","254.0030","0.0787"
"153.6000","256.0031","0.0795"
"154.8000","258.0031","0.0800"
"156.0000","260.0030","0.0791"
"157.2000","262.0030","0.0796"
"158.4000","264.0031","0.0811"
"159.6000","266.0030","0.0826"
"160.8000","268.0030","0.0841"
"162.0000","270.0030","0.0855"
"163.2000","272.0030","0.0867"
"164.4000","274.0030","0.0878"
"165.6000","276.0030","0.0889"
"166.8000","278.0031","0.0900"
"168.0000","280.0032","0.0910"
"169.2000","282.0031","0.0919"
"170.4000","284.0029","0.0929"
"171.6000","286.0030","0.0938"
"172.8000","288.0030","0.0948"
"174.0000","290.0030","0.0958"
"175.2000","292.0030","0.0968"
"176.4000","294.0030","0.0977"
"177.6000","296.0030","0.0987"
"178.8000","298.0031","0.0995"
"180.0000","300.0029","0.1004"
"181.2000","302.0030","0.1012"
"182.4000","304.0030","0.1019"
"183.6000","306.0033","0.1027"
"184.8000","308.0031","0.1036"
"186.0000","310.0032","0.1045"
"187.2000","312.0030","0.1055"
"188.4000","314.0031","0.1066"
"189.6000","316.0030","0.1076"
"190.8000","318.0030","0.1087"
"192.0000","320.0031","0.1098"
"193.2000","322.0031","0.1108"
"194.4000","324.0030","0.1118"
"195.6000","326.0031","0.1128"
"196.8000","328.0030","0.1138"
"198.0000","330.0030","0.1148"
"199.2000","332.0030","0.1156"
"200.4000","334.0031","0.1166"
"201.6000","336.0031","0.1176"
"202.8000","338.0030","0.1189"
"204.0000","340.0029","0.1203"
"205.2000","342.0029","0.1219"
"206.4000","344.0030","0.1237"
"207.6000","346.0031","0.1255"
"208.8000","348.0030","0.1273"
"210.0000","350.0030","0.1291"
"211.2000","352.0031","0.1308"
"212.4000","354.0032","0.1324"
"213.6000","356.0030","0.1340"
"214.8000","358.0029","0.1355"
"216.0000","360.0030","0.1369"
"217.2000","362.0031","0.1379"
"218.4000","364.0031","0.1389"
"219.6000","366.0031","0.1399"
"220.8000","368.0030","0.1410"
"222.0000","370.0030","0.1422"
"223.2000","372.0030","0.1434"
"224.4000","374.0031","0.1446"
"225.6000","376.0031","0.1459"
"226.8000","378.0030","0.1472"
"228.0000","380.0029","0.1487"
"229.2000","382.0031","0.1502"
"230.4000","384.0029","0.1518"
"231.6000","386.0031","0.1534"
"232.8000","388.0030","0.1550"
"234.0000","390.0031","0.1564"
"235.2000","392.0030","0.1579"
"236.4000","394.0030","0.1591"
"237.6000","396.0029","0.1602"
"238.8000","398.0030","0.1612"
"240.0000","400.0030","0.1623"
"241.2000","402.0031","0.1634"
"242.4000","404.0030","0.1644"
"243.6000","406.0031","0.1653"
"244.8000","408.0030","0.1662"
"246.0000","410.0030","0.1673"
"247.2000","412.0029","0.1689"
"248.4000","414.0029","0.1707"
"249.6000","416.0030","0.1728"
"250.8000","418.0033","0.1749"
"252.0000","420.0031","0.1772"
"253.2000","422.0030","0.1795"
"254.4000","424.0030","0.1818"
"255.6000","426.0031","0.1842"
"256.8000","428.0030","0.1864"
"258.0000","430.0030","0.1886"
"259.2000","432.0031","0.1907"
"260.4000","434.0031","0.1927"
"261.6000","436.0030","0.1946"
"262.8000","438.0030","0.1964"
"264.0000","440.0030","0.1981"
"265.2000","442.0031","0.1997"
"266.4000","444.0030","0.2012"
"267.6000","446.0031","0.2028"
"268.8000","448.0030","0.2043"
"270.0000","450.0031","0.2060"
"271.2000","452.0030","0.2075"
"272.4000","454.0030","0.2091"
"273.6000","456.0032","0.2105"
"274.8000","458.0031","0.2118"
"276.0000","460.0031","0.2126"
"277.2000","462.0030","0.2125"
"278.4000","464.0031","0.2131"
"279.6000","466.0030","0.2152"
"280.8000","468.0030","0.2176"
"282.0000","470.0031","0.2200"
"283.2000","472.0031","0.2221"
"284.4000","474.0034","0.1384"
"285.6000","476.0031","0.1380"
"286.8000","478.0030","0.1402"
"288.0000","480.0031","0.1427"
"289.2000","482.0030","0.1453"
"290.4000","484.0030","0.1477"
"291.6000","486.0031","0.1501"
"292.8000","488.0031","0.1524"
"294.0000","490.0031","0.1545"
"295.2000","492.0030","0.1565"
"296.4000","494.0030","0.1582"
"297.6000","496.0031","0.1598"
"298.8000","498.0031","0.1611"
"300.0000","500.0032","0.1623"
"301.2000","502.0031","0.1634"
"302.4000","504.0031","0.1644"
"303.6000","506.0031","0.1654"
"304.8000","508.0031","0.1664"
"306.0000","510.0031","0.1674"
"307.2000","512.0031","0.1685"
"308.4000","514.0032","0.1696"
"309.6000","516.0031","0.1707"
"310.8000","518.0031","0.1717"
"312.0000","520.0031","0.1727"
"313.2000","522.0031","0.1737"
"314.4000","524.0030","0.1747"
"315.6000","526.0031","0.1757"
"316.8000","528.0032","0.1767"
"318.0000","530.0032","0.1776"
"319.2000","532.0031","0.1786"
"320.4000","534.0032","0.1796"
"321.6000","536.0031","0.1807"
"322.8000","538.0031","0.1817"
"324.0000","540.0029","0.1828"
"325.2000","542.0031","0.1839"
"326.4000","544.0031","0.1851"
"327.6000","546.0032","0.1861"
"328.8000","548.0029","0.1872"
"330.0000","550.0031","0.1882"
"331.2000","552.0031","0.1891"
"332.4000","554.0032","0.1900"
"333.6000","556.0030","0.1910"
"334.8000","558.0029","0.1920"
"336.0000","560.0031","0.1931"
"337.2000","562.0031","0.1942"
"338.4000","564.0031","0.1953"
"339.6000","566.0031","0.1963"
"340.8000","568.0031","0.1974"
"342.0000","570.0032","0.1984"
"343.1100","571.8541","0.1146"