Folder: ROCO504/Force Calculations/Tensile Testing Results (part 3)

File: Unbraided - 2.csv
Time,Displacement,Force
(s),(mm),(kN)
"0.0000","0.0000","0.0001"
"1.4000","2.3367","0.0077"
"2.8000","4.6700","0.0154"
"4.2000","7.0035","0.0211"
"5.6000","9.3365","0.0252"
"7.0000","11.6701","0.0281"
"8.4000","14.0032","0.0303"
"9.8000","16.3367","0.0319"
"11.2000","18.6696","0.0332"
"12.6000","21.0035","0.0344"
"14.0000","23.3365","0.0353"
"15.4000","25.6700","0.0361"
"16.8000","28.0032","0.0368"
"18.2000","30.3365","0.0374"
"19.6000","32.6699","0.0380"
"21.0000","35.0032","0.0384"
"22.4000","37.3364","0.0389"
"23.8000","39.6700","0.0393"
"25.2000","42.0032","0.0390"
"26.6000","44.3367","0.0395"
"28.0000","46.6699","0.0401"
"29.4000","49.0033","0.0405"
"30.8000","51.3367","0.0409"
"32.2000","53.6699","0.0413"
"33.6000","56.0033","0.0417"
"35.0000","58.3368","0.0421"
"36.4000","60.6699","0.0425"
"37.8000","63.0035","0.0430"
"39.2000","65.3365","0.0435"
"40.6000","67.6700","0.0440"
"42.0000","70.0032","0.0446"
"43.4000","72.3367","0.0451"
"44.8000","74.6699","0.0457"
"46.2000","77.0033","0.0463"
"47.6000","79.3366","0.0468"
"49.0000","81.6700","0.0474"
"50.4000","84.0033","0.0480"
"51.8000","86.3366","0.0485"
"53.2000","88.6700","0.0490"
"54.6000","91.0032","0.0495"
"56.0000","93.3365","0.0501"
"57.4000","95.6701","0.0507"
"58.8000","98.0031","0.0513"
"60.2000","100.3368","0.0519"
"61.6000","102.6699","0.0525"
"63.0000","105.0033","0.0531"
"64.4000","107.3365","0.0536"
"65.8000","109.6698","0.0541"
"67.2000","112.0032","0.0545"
"68.6000","114.3367","0.0550"
"70.0000","116.6699","0.0555"
"71.4000","119.0033","0.0560"
"72.8000","121.3365","0.0565"
"74.2000","123.6700","0.0571"
"75.6000","126.0032","0.0575"
"77.0000","128.3366","0.0579"
"78.4000","130.6698","0.0583"
"79.8000","133.0034","0.0588"
"81.2000","135.3365","0.0592"
"82.6000","137.6700","0.0597"
"84.0000","140.0033","0.0603"
"85.4000","142.3366","0.0609"
"86.8000","144.6700","0.0612"
"88.2000","147.0033","0.0615"
"89.6000","149.3365","0.0618"
"91.0000","151.6701","0.0621"
"92.4000","154.0032","0.0624"
"93.8000","156.3368","0.0626"
"95.2000","158.6700","0.0631"
"96.6000","161.0032","0.0636"
"98.0000","163.3366","0.0641"
"99.4000","165.6698","0.0644"
"100.8000","168.0032","0.0644"
"102.2000","170.3368","0.0647"
"103.6000","172.6698","0.0652"
"105.0000","175.0034","0.0657"
"106.4000","177.3365","0.0662"
"107.8000","179.6700","0.0664"
"109.2000","182.0032","0.0662"
"110.6000","184.3366","0.0659"
"112.0000","186.6698","0.0661"
"113.4000","189.0034","0.0667"
"114.8000","191.3365","0.0673"
"116.2000","193.6700","0.0677"
"117.6000","196.0033","0.0680"
"119.0000","198.3366","0.0681"
"120.4000","200.6700","0.0682"
"121.8000","203.0033","0.0683"
"123.2000","205.3365","0.0687"
"124.6000","207.6701","0.0694"
"126.0000","210.0032","0.0698"
"127.4000","212.3366","0.0699"
"128.8000","214.6700","0.0703"
"130.2000","217.0032","0.0711"
"131.6000","219.3366","0.0722"
"133.0000","221.6698","0.0730"
"134.4000","224.0032","0.0737"
"135.8000","226.3366","0.0745"
"137.2000","228.6698","0.0752"
"138.6000","231.0034","0.0761"
"140.0000","233.3365","0.0770"
"141.4000","235.6700","0.0777"
"142.8000","238.0032","0.0785"
"144.2000","240.3366","0.0791"
"145.6000","242.6698","0.0797"
"147.0000","245.0034","0.0802"
"148.4000","247.3365","0.0808"
"149.8000","249.6700","0.0814"
"151.2000","252.0034","0.0817"
"152.6000","254.3366","0.0816"
"154.0000","256.6700","0.0821"
"155.4000","259.0033","0.0830"
"156.8000","261.3365","0.0841"
"158.2000","263.6700","0.0851"
"159.6000","266.0032","0.0860"
"161.0000","268.3366","0.0869"
"162.4000","270.6698","0.0845"
"163.8000","273.0033","0.0806"
"165.2000","275.3366","0.0809"
"166.6000","277.6698","0.0816"
"168.0000","280.0032","0.0824"
"169.4000","282.3366","0.0832"
"170.8000","284.6699","0.0840"
"172.2000","287.0033","0.0846"
"173.6000","289.3366","0.0852"
"175.0000","291.6701","0.0856"
"176.4000","294.0033","0.0861"
"177.8000","296.3366","0.0866"
"179.2000","298.6698","0.0871"
"180.6000","301.0034","0.0876"
"182.0000","303.3365","0.0885"
"183.4000","305.6699","0.0893"
"184.8000","308.0033","0.0902"
"186.2000","310.3366","0.0913"
"187.6000","312.6700","0.0922"
"189.0000","315.0031","0.0929"
"190.4000","317.3365","0.0936"
"191.8000","319.6701","0.0944"
"193.2000","322.0030","0.0954"
"194.6000","324.3367","0.0962"
"196.0000","326.6698","0.0973"
"197.4000","329.0033","0.0984"
"198.8000","331.3366","0.0991"
"200.2000","333.6700","0.0999"
"201.6000","336.0031","0.1009"
"203.0000","338.3367","0.1015"
"204.4000","340.6700","0.1008"
"205.8000","343.0034","0.1002"
"207.2000","345.3365","0.1002"
"208.6000","347.6700","0.1005"
"210.0000","350.0031","0.1013"
"211.4000","352.3366","0.1009"
"212.8000","354.6698","0.1013"
"214.2000","357.0034","0.1021"
"215.6000","359.3365","0.1025"
"217.0000","361.6700","0.1036"
"218.4000","364.0033","0.1046"
"219.8000","366.3366","0.1053"
"221.2000","368.6700","0.1054"
"222.6000","371.0033","0.1054"
"224.0000","373.3365","0.1049"
"225.4000","375.6702","0.1042"
"226.8000","378.0031","0.0981"
"228.2000","380.3367","0.0935"
"229.6000","382.6700","0.0928"
"231.0000","385.0033","0.0929"
"232.4000","387.3365","0.0910"
"233.8000","389.6700","0.0835"
"235.2000","392.0033","0.0858"
"236.6000","394.3366","0.0884"
"238.0000","396.6698","0.0908"
"239.4000","399.0034","0.0929"
"240.8000","401.3366","0.0946"
"242.2000","403.6700","0.0959"
"243.6000","406.0031","0.0969"
"245.0000","408.3368","0.0976"
"246.4000","410.6698","0.0981"
"247.8000","413.0034","0.0982"
"249.2000","415.3365","0.0961"
"250.6000","417.6700","0.0983"
"252.0000","420.0033","0.1001"
"253.4000","422.3366","0.0996"
"254.8000","424.6700","0.1000"
"256.2000","427.0033","0.1015"
"257.6000","429.3365","0.1028"
"259.0000","431.6700","0.1035"
"260.4000","434.0031","0.1043"
"261.8000","436.3368","0.1052"
"263.2000","438.6698","0.1060"
"264.6000","441.0031","0.1078"
"266.0000","443.3366","0.1103"
"267.4000","445.6700","0.1131"
"268.8000","448.0031","0.1160"
"270.2000","450.3366","0.1187"
"271.6000","452.6698","0.1213"
"273.0000","455.0033","0.1236"
"274.4000","457.3366","0.1258"
"275.8000","459.6700","0.1278"
"277.2000","462.0031","0.1296"
"278.6000","464.3366","0.1313"
"280.0000","466.6698","0.1326"
"281.4000","469.0034","0.1339"
"282.8000","471.3365","0.1351"
"284.2000","473.6700","0.1361"
"285.6000","476.0033","0.1370"
"287.0000","478.3366","0.1371"
"288.4000","480.6700","0.1364"
"289.8000","483.0033","0.1359"
"291.2000","485.3363","0.1354"
"292.6000","487.6701","0.1353"
"294.0000","490.0031","0.1359"
"295.4000","492.3368","0.1370"
"296.8000","494.6698","0.1383"
"298.2000","497.0033","0.1397"
"299.6000","499.3366","0.1410"
"301.0000","501.6699","0.1423"
"302.4000","504.0032","0.1438"
"303.8000","506.3367","0.1451"
"305.2000","508.6698","0.1463"
"306.6000","511.0033","0.1475"
"308.0000","513.3365","0.1484"
"309.4000","515.6700","0.1487"
"310.8000","518.0032","0.1486"
"312.2000","520.3365","0.1486"
"313.6000","522.6698","0.1491"
"315.0000","525.0034","0.1504"
"316.4000","527.3365","0.1519"
"317.8000","529.6699","0.1535"
"319.2000","532.0034","0.1543"
"320.6000","534.3367","0.1539"
"322.0000","536.6699","0.1523"
"323.4000","539.0032","0.1493"
"324.8000","541.3364","0.1467"
"326.2000","543.6700","0.1443"
"327.6000","546.0032","0.1346"
"329.0000","548.3368","0.1350"
"330.4000","550.6698","0.1376"
"331.8000","553.0032","0.1408"
"333.2000","555.3364","0.1437"
"334.6000","557.6700","0.1348"
"336.0000","560.0032","0.1261"
"337.4000","562.3367","0.1146"
"338.8000","564.6699","0.1162"
"340.2000","567.0032","0.1232"
"341.6000","569.3366","0.1315"
"343.0000","571.6699","0.1399"
"344.4000","574.0032","0.1482"
"345.8000","576.3364","0.1558"
"347.2000","578.6698","0.1628"
"348.6000","581.0034","0.1687"
"350.0000","583.3364","0.1736"
"351.4000","585.6699","0.1777"
"352.8000","588.0032","0.1813"
"354.2000","590.3367","0.1846"
"355.6000","592.6700","0.1875"
"357.0000","595.0031","0.1899"
"358.4000","597.3364","0.1919"
"359.8000","599.6700","0.1935"
"361.2000","602.0031","0.1947"
"362.6000","604.3365","0.1958"
"364.0000","606.6699","0.1970"
"365.4000","609.0034","0.1984"
"366.8000","611.3364","0.1996"
"368.2000","613.6699","0.2008"
"369.6000","616.0032","0.2020"
"371.0000","618.3367","0.2032"
"372.4000","620.6699","0.2043"
"373.8000","623.0032","0.2055"
"375.2000","625.3366","0.2068"
"376.6000","627.6699","0.2081"
"378.0000","630.0032","0.2096"
"379.4000","632.3365","0.2110"
"380.8000","634.6698","0.2126"
"382.2000","637.0034","0.2141"
"383.6000","639.3366","0.2155"
"385.0000","641.6699","0.2159"
"386.4000","644.0032","0.1391"
"387.8000","646.3365","0.1406"
"389.2000","648.6699","0.1436"
"390.6000","651.0032","0.1464"
"392.0000","653.3364","0.1489"
"393.4000","655.6700","0.1514"
"394.8000","658.0031","0.1536"
"396.2000","660.3367","0.1554"
"397.6000","662.6698","0.1569"
"399.0000","665.0034","0.1582"
"400.4000","667.3364","0.1594"
"401.8000","669.6699","0.1606"
"403.2000","672.0032","0.1617"
"404.6000","674.3367","0.1626"
"406.0000","676.6698","0.1634"
"407.4000","679.0032","0.1642"
"408.8000","681.3367","0.1650"
"410.2000","683.6699","0.1658"
"411.6000","686.0032","0.1667"
"413.0000","688.3365","0.1675"
"413.2500","688.7536","0.1004"

File: Unbraided Nylon - 1.csv
Time,Displacement,Force
(s),(mm),(kN)
"0.0000","0.0000","0.0000"
"0.4000","0.6635","0.0032"
"0.8000","1.3357","0.0057"
"1.2000","2.0031","0.0078"
"1.6000","2.6697","0.0095"
"2.0000","3.3365","0.0110"
"2.4000","4.0032","0.0124"
"2.8000","4.6697","0.0137"
"3.2000","5.3363","0.0149"
"3.6000","6.0031","0.0162"
"4.0000","6.6697","0.0175"
"4.4000","7.3365","0.0189"
"4.8000","8.0032","0.0207"
"5.2000","8.6697","0.0226"
"5.6000","9.3365","0.0250"
"6.0000","10.0031","0.0281"
"6.4000","10.6697","0.0320"
"6.8000","11.3365","0.0370"
"7.2000","12.0032","0.0433"
"7.6000","12.6696","0.0501"
"8.0000","13.3364","0.0555"
"8.4000","14.0029","0.0596"
"8.8000","14.6699","0.0641"
"9.2000","15.3367","0.0683"
"9.6000","16.0031","0.0716"
"10.0000","16.6697","0.0754"
"10.4000","17.3365","0.0755"
"10.8000","18.0031","0.0810"
"11.2000","18.6697","0.0848"
"11.6000","19.3364","0.0873"
"12.0000","20.0032","0.0897"
"12.4000","20.6697","0.0858"
"12.8000","21.3364","0.0893"
"13.2000","22.0031","0.0915"
"13.6000","22.6699","0.0895"
"14.0000","23.3365","0.0919"
"14.4000","24.0032","0.0947"
"14.8000","24.6696","0.0952"
"15.2000","25.3364","0.0963"
"15.6000","26.0031","0.0942"
"16.0000","26.6699","0.0970"
"16.4000","27.3365","0.1001"
"16.8000","28.0032","0.0963"
"17.2000","28.6699","0.0960"
"17.6000","29.3364","0.1002"
"18.0000","30.0031","0.1015"
"18.4000","30.6699","0.0947"
"18.8000","31.3365","0.1001"
"19.2000","32.0032","0.1032"
"19.6000","32.6697","0.1016"
"20.0000","33.3364","0.1007"
"20.4000","34.0031","0.1024"
"20.8000","34.6699","0.1025"
"21.2000","35.3365","0.1033"
"21.6000","36.0032","0.1042"
"22.0000","36.6697","0.1018"
"22.4000","37.3364","0.1024"
"22.8000","38.0032","0.1031"
"23.2000","38.6699","0.1027"
"23.6000","39.3365","0.1027"
"24.0000","40.0032","0.1028"
"24.4000","40.6697","0.1057"
"24.8000","41.3365","0.0991"
"25.2000","42.0032","0.1021"
"25.6000","42.6699","0.1056"
"26.0000","43.3365","0.1007"
"26.4000","44.0032","0.1053"
"26.8000","44.6697","0.1065"
"27.2000","45.3363","0.1089"
"27.6000","46.0031","0.1052"
"28.0000","46.6699","0.1073"
"28.4000","47.3365","0.1109"
"28.8000","48.0031","0.1144"
"29.2000","48.6696","0.1145"
"29.6000","49.3365","0.1094"
"30.0000","50.0031","0.1137"
"30.4000","50.6697","0.1170"
"30.8000","51.3365","0.1171"
"31.2000","52.0032","0.1171"
"31.6000","52.6699","0.1129"
"32.0000","53.3364","0.1161"
"32.4000","54.0031","0.1192"
"32.8000","54.6699","0.1212"
"33.2000","55.3365","0.1217"
"33.6000","56.0032","0.1198"
"34.0000","56.6697","0.1167"
"34.4000","57.3364","0.1190"
"34.8000","58.0031","0.1204"
"35.2000","58.6697","0.1215"
"35.6000","59.3365","0.1169"
"36.0000","60.0032","0.1189"
"36.4000","60.6697","0.1247"
"36.8000","61.3364","0.1280"
"37.2000","62.0031","0.1279"
"37.6000","62.6700","0.1254"
"38.0000","63.3365","0.1282"
"38.4000","64.0031","0.1308"
"38.8000","64.6696","0.1310"
"39.2000","65.3365","0.1315"
"39.6000","66.0032","0.1320"
"40.0000","66.6699","0.1283"
"40.4000","67.3365","0.1235"
"40.8000","68.0031","0.1251"
"41.2000","68.6697","0.1228"
"41.6000","69.3364","0.1203"
"42.0000","70.0031","0.1221"
"42.4000","70.6700","0.1216"
"42.8000","71.3365","0.1205"
"43.2000","72.0031","0.1224"
"43.6000","72.6697","0.1167"
"44.0000","73.3365","0.1219"
"44.4000","74.0031","0.1225"
"44.8000","74.6699","0.1179"
"45.2000","75.3364","0.1214"
"45.6000","76.0032","0.1221"
"46.0000","76.6697","0.1211"
"46.4000","77.3364","0.1242"
"46.8000","78.0031","0.1262"
"47.2000","78.6699","0.1185"
"47.6000","79.3366","0.1246"
"48.0000","80.0031","0.1251"
"48.4000","80.6696","0.1246"
"48.8000","81.3364","0.1254"
"49.2000","82.0032","0.1262"
"49.6000","82.6699","0.1290"
"50.0000","83.3364","0.1278"
"50.4000","84.0032","0.1254"
"50.8000","84.6697","0.1324"
"51.2000","85.3363","0.1308"
"51.6000","86.0032","0.1307"
"52.0000","86.6699","0.1363"
"52.4000","87.3365","0.1343"
"52.8000","88.0031","0.1306"
"53.2000","88.6696","0.1365"
"53.6000","89.3365","0.1340"
"54.0000","90.0032","0.1345"
"54.4000","90.6699","0.1378"
"54.8000","91.3365","0.1398"
"55.2000","92.0032","0.1375"
"55.6000","92.6697","0.1397"
"56.0000","93.3364","0.1395"
"56.4000","94.0031","0.1397"
"56.8000","94.6700","0.1419"
"57.2000","95.3367","0.1380"
"57.6000","96.0031","0.1414"
"58.0000","96.6697","0.1428"
"58.4000","97.3365","0.1377"
"58.8000","98.0032","0.1445"
"59.2000","98.6699","0.1455"
"59.6000","99.3364","0.1428"
"60.0000","100.0032","0.1479"
"60.4000","100.6697","0.1465"
"60.8000","101.3363","0.1469"
"61.2000","102.0031","0.1530"
"61.6000","102.6700","0.1531"
"62.0000","103.3365","0.1543"
"62.4000","104.0029","0.1574"
"62.8000","104.6697","0.1550"
"63.2000","105.3364","0.1578"
"63.6000","106.0032","0.1611"
"64.0000","106.6699","0.1550"
"64.4000","107.3365","0.1611"
"64.8000","108.0031","0.1589"
"65.2000","108.6697","0.1562"
"65.6000","109.3364","0.1595"
"66.0000","110.0031","0.1647"
"66.4000","110.6699","0.1622"
"66.8000","111.3365","0.1520"
"67.2000","112.0031","0.1539"
"67.6000","112.6696","0.1595"
"68.0000","113.3365","0.1566"
"68.4000","114.0032","0.1501"
"68.8000","114.6697","0.1584"
"69.2000","115.3364","0.1620"
"69.6000","116.0032","0.1518"
"70.0000","116.6697","0.1557"
"70.4000","117.3364","0.1514"
"70.8000","118.0031","0.1535"
"71.2000","118.6699","0.1533"
"71.6000","119.3365","0.1521"
"72.0000","120.0031","0.1537"
"72.4000","120.6696","0.1569"
"72.8000","121.3365","0.1469"
"73.2000","122.0031","0.1451"
"73.6000","122.6697","0.1495"
"74.0000","123.3365","0.1452"
"74.4000","124.0031","0.1454"
"74.8000","124.6697","0.1448"
"75.2000","125.3364","0.1533"
"75.6000","126.0032","0.1488"
"76.0000","126.6698","0.1463"
"76.4000","127.3365","0.1505"
"76.8000","128.0031","0.1535"
"77.2000","128.6697","0.1588"
"77.6000","129.3365","0.1560"
"78.0000","130.0030","0.1523"
"78.4000","130.6697","0.1604"
"78.8000","131.3364","0.1627"
"79.2000","132.0032","0.1596"
"79.6000","132.6698","0.1575"
"80.0000","133.3362","0.1617"
"80.4000","134.0032","0.1602"
"80.8000","134.6698","0.1563"
"81.2000","135.3365","0.1632"
"81.6000","136.0032","0.1617"
"82.0000","136.6697","0.1661"
"82.4000","137.3365","0.1555"
"82.8000","138.0032","0.1611"
"83.2000","138.6698","0.1661"
"83.6000","139.3365","0.1557"
"84.0000","140.0032","0.1636"
"84.4000","140.6698","0.1596"
"84.8000","141.3364","0.1600"
"85.2000","142.0031","0.1570"
"85.6000","142.6698","0.1624"
"86.0000","143.3365","0.1627"
"86.4000","144.0030","0.1559"
"86.8000","144.6697","0.1625"
"87.2000","145.3365","0.1633"
"87.6000","146.0032","0.1606"
"88.0000","146.6698","0.1537"
"88.4000","147.3365","0.1595"
"88.8000","148.0033","0.1514"
"89.2000","148.6697","0.1585"
"89.6000","149.3364","0.1639"
"90.0000","150.0032","0.1591"
"90.4000","150.6698","0.1556"
"90.8000","151.3366","0.1639"
"91.2000","152.0032","0.1510"
"91.6000","152.6697","0.1560"
"92.0000","153.3365","0.1579"
"92.4000","154.0032","0.1538"
"92.8000","154.6697","0.1611"
"93.2000","155.3365","0.1513"
"93.6000","156.0033","0.1542"
"94.0000","156.6697","0.1572"
"94.4000","157.3364","0.1618"
"94.8000","158.0031","0.1649"
"95.2000","158.6700","0.1647"
"95.6000","159.3365","0.1678"
"96.0000","160.0030","0.1707"
"96.4000","160.6697","0.1679"
"96.8000","161.3364","0.1698"
"97.2000","162.0030","0.1773"
"97.6000","162.6698","0.1639"
"98.0000","163.3365","0.1633"
"98.4000","164.0032","0.1698"
"98.8000","164.6698","0.1650"
"99.2000","165.3364","0.1707"
"99.6000","166.0030","0.1699"
"100.0000","166.6698","0.1616"
"100.4000","167.3365","0.1723"
"100.8000","168.0032","0.1769"
"101.2000","168.6694","0.1724"
"101.6000","169.3364","0.1783"
"102.0000","170.0032","0.1745"
"102.4000","170.6697","0.1799"
"102.8000","171.3364","0.1805"
"103.2000","172.0032","0.1803"
"103.6000","172.6697","0.1788"
"104.0000","173.3362","0.1818"
"104.4000","174.0030","0.1889"
"104.8000","174.6698","0.1920"
"105.2000","175.3365","0.1855"
"105.6000","176.0032","0.1933"
"106.0000","176.6697","0.1963"
"106.4000","177.3365","0.1904"
"106.8000","178.0030","0.1982"
"107.2000","178.6698","0.2018"
"107.6000","179.3364","0.2031"
"108.0000","180.0032","0.2048"
"108.4000","180.6700","0.1684"
"108.8000","181.3364","0.1580"
"109.2000","182.0030","0.1617"
"109.6000","182.6698","0.1665"
"110.0000","183.3365","0.1591"
"110.4000","184.0030","0.1676"
"110.8000","184.6696","0.1784"
"111.2000","185.3364","0.1798"
"111.6000","186.0032","0.1864"
"112.0000","186.6697","0.1985"
"112.4000","187.3365","0.1940"
"112.8000","188.0033","0.1901"
"113.2000","188.6698","0.1667"
"113.6000","189.3362","0.1753"
"114.0000","190.0032","0.1590"
"114.4000","190.6698","0.1678"
"114.8000","191.3365","0.1773"
"115.2000","192.0030","0.1770"
"115.6000","192.6696","0.1746"
"116.0000","193.3362","0.1870"
"116.4000","194.0031","0.1941"
"116.8000","194.6697","0.2022"
"117.2000","195.3364","0.2137"
"117.6000","196.0032","0.2242"
"118.0000","196.6698","0.2324"
"118.4000","197.3364","0.2358"
"118.8000","198.0030","0.2435"
"119.0580","198.4341","0.1438"

File: Unbraided Nylon - 2.csv
Time,Displacement,Force
(s),(mm),(kN)
"0.0000","0.0000","0.0000"
"0.4000","0.6641","0.0085"
"0.8000","1.3361","0.0195"
"1.2000","2.0032","0.0306"
"1.6000","2.6696","0.0418"
"2.0000","3.3364","0.0531"
"2.4000","4.0031","0.0638"
"2.8000","4.6697","0.0718"
"3.2000","5.3364","0.0826"
"3.6000","6.0032","0.0905"
"4.0000","6.6696","0.0964"
"4.4000","7.3363","0.0974"
"4.8000","8.0029","0.0966"
"5.2000","8.6699","0.0958"
"5.6000","9.3367","0.0978"
"6.0000","10.0031","0.0975"
"6.4000","10.6697","0.0962"
"6.8000","11.3365","0.0997"
"7.2000","12.0032","0.0935"
"7.6000","12.6697","0.0968"
"8.0000","13.3364","0.0935"
"8.4000","14.0032","0.0963"
"8.8000","14.6697","0.0979"
"9.2000","15.3363","0.0942"
"9.6000","16.0031","0.0964"
"10.0000","16.6697","0.0931"
"10.4000","17.3365","0.0950"
"10.8000","18.0032","0.0929"
"11.2000","18.6696","0.0969"
"11.6000","19.3364","0.0941"
"12.0000","20.0031","0.0966"
"12.4000","20.6700","0.0904"
"12.8000","21.3364","0.0950"
"13.2000","22.0033","0.0908"
"13.6000","22.6697","0.0925"
"14.0000","23.3363","0.0931"
"14.4000","24.0031","0.0939"
"14.8000","24.6697","0.0961"
"15.2000","25.3365","0.0952"
"15.6000","26.0031","0.0960"
"16.0000","26.6696","0.0988"
"16.4000","27.3364","0.0996"
"16.8000","28.0031","0.1020"
"17.2000","28.6697","0.1003"
"17.6000","29.3364","0.1012"
"18.0000","30.0033","0.1025"
"18.4000","30.6697","0.1015"
"18.8000","31.3364","0.1035"
"19.2000","32.0031","0.1009"
"19.6000","32.6697","0.1030"
"20.0000","33.3365","0.1033"
"20.4000","34.0032","0.0999"
"20.8000","34.6696","0.1034"
"21.2000","35.3364","0.1012"
"21.6000","36.0031","0.1017"
"22.0000","36.6697","0.1028"
"22.4000","37.3365","0.0989"
"22.8000","38.0032","0.1056"
"23.2000","38.6697","0.1026"
"23.6000","39.3363","0.1040"
"24.0000","40.0029","0.1048"
"24.4000","40.6699","0.1024"
"24.8000","41.3365","0.1050"
"25.2000","42.0031","0.1067"
"25.6000","42.6696","0.1029"
"26.0000","43.3364","0.1062"
"26.4000","44.0032","0.1072"
"26.8000","44.6697","0.1022"
"27.2000","45.3364","0.1081"
"27.6000","46.0032","0.0984"
"28.0000","46.6699","0.1055"
"28.4000","47.3363","0.1076"
"28.8000","48.0031","0.1000"
"29.2000","48.6699","0.1079"
"29.6000","49.3365","0.1081"
"30.0000","50.0031","0.1031"
"30.4000","50.6696","0.1110"
"30.8000","51.3365","0.1028"
"31.2000","52.0031","0.1079"
"31.6000","52.6697","0.1089"
"32.0000","53.3365","0.1054"
"32.4000","54.0032","0.1090"
"32.8000","54.6697","0.1075"
"33.2000","55.3364","0.1072"
"33.6000","56.0031","0.1091"
"34.0000","56.6699","0.1083"
"34.4000","57.3365","0.1085"
"34.8000","58.0031","0.1076"
"35.2000","58.6696","0.1102"
"35.6000","59.3364","0.1069"
"36.0000","60.0032","0.1091"
"36.4000","60.6697","0.1109"
"36.8000","61.3364","0.1092"
"37.2000","62.0032","0.1034"
"37.6000","62.6696","0.1048"
"38.0000","63.3363","0.1088"
"38.4000","64.0029","0.1099"
"38.8000","64.6699","0.1056"
"39.2000","65.3365","0.1082"
"39.6000","66.0031","0.1068"
"40.0000","66.6696","0.1096"
"40.4000","67.3365","0.1077"
"40.8000","68.0032","0.1077"
"41.2000","68.6699","0.1109"
"41.6000","69.3364","0.1073"
"42.0000","70.0031","0.1045"
"42.4000","70.6697","0.1129"
"42.8000","71.3364","0.1120"
"43.2000","72.0031","0.1039"
"43.6000","72.6699","0.1126"
"44.0000","73.3365","0.1142"
"44.4000","74.0031","0.1082"
"44.8000","74.6696","0.1110"
"45.2000","75.3365","0.1154"
"45.6000","76.0033","0.1127"
"46.0000","76.6699","0.1112"
"46.4000","77.3364","0.1160"
"46.8000","78.0031","0.1160"
"47.2000","78.6697","0.1119"
"47.6000","79.3364","0.1158"
"48.0000","80.0031","0.1196"
"48.4000","80.6699","0.1174"
"48.8000","81.3365","0.1160"
"49.2000","82.0031","0.1176"
"49.6000","82.6696","0.1174"
"50.0000","83.3364","0.1134"
"50.4000","84.0031","0.1166"
"50.8000","84.6699","0.1158"
"51.2000","85.3365","0.1140"
"51.6000","86.0032","0.1186"
"52.0000","86.6697","0.1158"
"52.4000","87.3364","0.1152"
"52.8000","88.0031","0.1194"
"53.2000","88.6699","0.1193"
"53.6000","89.3365","0.1157"
"54.0000","90.0031","0.1181"
"54.4000","90.6696","0.1212"
"54.8000","91.3365","0.1200"
"55.2000","92.0031","0.1199"
"55.6000","92.6697","0.1224"
"56.0000","93.3364","0.1201"
"56.4000","94.0031","0.1219"
"56.8000","94.6697","0.1253"
"57.2000","95.3364","0.1199"
"57.6000","96.0031","0.1250"
"58.0000","96.6700","0.1275"
"58.4000","97.3365","0.1215"
"58.8000","98.0031","0.1265"
"59.2000","98.6696","0.1282"
"59.6000","99.3365","0.1246"
"60.0000","100.0032","0.1283"
"60.4000","100.6697","0.1290"
"60.8000","101.3365","0.1276"
"61.2000","102.0032","0.1269"
"61.6000","102.6697","0.1294"
"62.0000","103.3363","0.1311"
"62.4000","104.0031","0.1290"
"62.8000","104.6697","0.1306"
"63.2000","105.3365","0.1337"
"63.6000","106.0032","0.1311"
"64.0000","106.6697","0.1314"
"64.4000","107.3365","0.1329"
"64.8000","108.0032","0.1336"
"65.2000","108.6697","0.1351"
"65.6000","109.3364","0.1339"
"66.0000","110.0032","0.1339"
"66.4000","110.6697","0.1367"
"66.8000","111.3363","0.1417"
"67.2000","112.0031","0.1396"
"67.6000","112.6699","0.1403"
"68.0000","113.3364","0.1455"
"68.4000","114.0031","0.1449"
"68.8000","114.6696","0.1465"
"69.2000","115.3364","0.1478"
"69.6000","116.0031","0.1459"
"70.0000","116.6699","0.1457"
"70.4000","117.3364","0.1439"
"70.8000","118.0031","0.1465"
"71.2000","118.6699","0.1462"
"71.6000","119.3364","0.1395"
"72.0000","120.0031","0.1458"
"72.4000","120.6698","0.1469"
"72.8000","121.3365","0.1461"
"73.2000","122.0031","0.1527"
"73.6000","122.6697","0.1577"
"74.0000","123.3364","0.1574"
"74.4000","124.0031","0.1585"
"74.8000","124.6697","0.1591"
"75.2000","125.3364","0.1604"
"75.6000","126.0032","0.1628"
"76.0000","126.6697","0.1488"
"76.4000","127.3364","0.1482"
"76.8000","128.0031","0.1500"
"77.2000","128.6700","0.1440"
"77.6000","129.3366","0.1464"
"78.0000","130.0032","0.1485"
"78.4000","130.6697","0.1460"
"78.8000","131.3365","0.1399"
"79.2000","132.0032","0.1486"
"79.6000","132.6698","0.1393"
"80.0000","133.3365","0.1439"
"80.4000","134.0032","0.1424"
"80.8000","134.6697","0.1422"
"81.2000","135.3362","0.1409"
"81.6000","136.0029","0.1436"
"82.0000","136.6698","0.1452"
"82.4000","137.3365","0.1476"
"82.8000","138.0032","0.1414"
"83.2000","138.6698","0.1430"
"83.6000","139.3364","0.1521"
"84.0000","140.0032","0.1518"
"84.4000","140.6697","0.1487"
"84.8000","141.3365","0.1542"
"85.2000","142.0032","0.1520"
"85.6000","142.6698","0.1452"
"86.0000","143.3362","0.1523"
"86.4000","144.0030","0.1584"
"86.8000","144.6698","0.1589"
"87.2000","145.3365","0.1579"
"87.6000","146.0030","0.1606"
"88.0000","146.6696","0.1658"
"88.4000","147.3364","0.1695"
"88.8000","148.0030","0.1659"
"89.2000","148.6697","0.1696"
"89.6000","149.3364","0.1767"
"90.0000","150.0032","0.1795"
"90.4000","150.6698","0.1804"
"90.8000","151.3364","0.1803"
"91.2000","152.0030","0.1792"
"91.6000","152.6698","0.1771"
"92.0000","153.3366","0.1796"
"92.4000","154.0030","0.1873"
"92.8000","154.6696","0.1913"
"93.2000","155.3365","0.1920"
"93.6000","156.0032","0.1916"
"94.0000","156.6697","0.1934"
"94.4000","157.3364","0.2038"
"94.8000","158.0032","0.2098"
"95.2000","158.6698","0.2039"
"95.6000","159.3362","0.1835"
"96.0000","160.0030","0.1964"
"96.4000","160.6698","0.2019"
"96.8000","161.3365","0.2040"
"97.2000","162.0030","0.2146"
"97.6000","162.6697","0.2002"
"98.0000","163.3365","0.1910"
"98.4000","164.0031","0.2015"
"98.8000","164.6697","0.2116"
"99.2000","165.3364","0.2202"
"99.6000","166.0032","0.2272"
"100.0000","166.6697","0.2329"
"100.2980","167.1673","0.1384"