Folder: ROCO504/Force Calculations/Tensile Testing Results

Note: README.md
# ROCO504: Advanced Robot Design
## Robot Active Fall-Absorption Mechanism
### Mason Carter, Luka Danilovic, Elliott White

This is a repository to hold all the files for the ROCO504 project.

#### Project Assignment
For the assignment the group will need to design, implement and evaluate an advanced robot
design. Typical skills to be acquired/demonstrated include the use of CAD, FEA, 3D printing,
materials, mechanisms, robot programming and structural analysis. The project will enable the participents to
study, implement and test various aspects of robotics, including soft and exotic materials, novel
actuation principles, 3D-printable structures, and the interaction of a robot with its environment. 
A budget of £70 for the project is given.

#### Abstract
As the trend of Robotics leans towards creating taller robots, more and more researchers are struggling with the task of trying to keep a robot with a small foot-base upright. The robot will, inevitably, fall over. This can cause massive damage to the robot, mostly consisting of mechanical damage to the links between joints, or servo damage. Until fall prevention becomes more effective, a simpler fall-damage-reduction system would be incredibly useful. 

We propose to design and create a robotic leg that consists of agonist-antagonist actuators and can detect when a robot has fallen past its self-balancing point. The leg will then reach out and use itself to reduce the falling speed. This can be comparable to how a human might brace themselves when falling. Artificial tendons will be used to store potential spring energy. 

### Design
![alt text](https://github.com/ElliWhite/ROCO504/blob/master/Renders/Main.png)
![alt text](https://github.com/ElliWhite/ROCO504/blob/master/Renders/Side.png)
![alt text](https://github.com/ElliWhite/ROCO504/blob/master/Renders/Main_with_leg.png)
![alt text](https://github.com/ElliWhite/ROCO504/blob/master/Photos/MAIN_BODY.jpg)
![alt text](https://github.com/ElliWhite/ROCO504/blob/master/Photos/IMG_20190102_153236.jpg)
![alt text](https://github.com/ElliWhite/ROCO504/blob/master/Photos/IMG_20190105_160925.jpg)
![alt text](https://github.com/ElliWhite/ROCO504/blob/master/Photos/IMG_20190105_160858.jpg)
![alt text](https://github.com/ElliWhite/ROCO504/blob/master/Photos/IMG_20190105_160833.jpg)

### Conclusion
Video: https://youtu.be/zlB8UxlkwFY

We have built a platform that, with more work, will be capable of demonstrating the use of agonist-antagonist joints and artificial soft tendons to absorb a fall of a robot. The software algorithms that are in place are capable of successfully executing a fall-reduction system, but it is the hardware that causes limitations. The motors do not have enough torque to slowly lower the body down to the floor, nor have a high enough RPM to tension the leg to a high enough degree before the body reaches the floor. 

The biggest improvement to be made would be changing the DC motors to a more powerful version. This would enable a fa

File: Braided - 1.csv
Time,Displacement,Force
(s),(mm),(kN)
"0.0000","0.0000","0.0000"
"1.4000","2.3368","0.0085"
"2.8000","4.6703","0.0143"
"4.2000","7.0032","0.0188"
"5.6000","9.3368","0.0221"
"7.0000","11.6700","0.0235"
"8.4000","14.0035","0.0256"
"9.8000","16.3367","0.0271"
"11.2000","18.6701","0.0284"
"12.6000","21.0032","0.0294"
"14.0000","23.3368","0.0300"
"15.4000","25.6700","0.0305"
"16.8000","28.0031","0.0312"
"18.2000","30.3368","0.0320"
"19.6000","32.6700","0.0326"
"21.0000","35.0032","0.0332"
"22.4000","37.3368","0.0336"
"23.8000","39.6699","0.0340"
"25.2000","42.0036","0.0345"
"26.6000","44.3365","0.0348"
"28.0000","46.6701","0.0350"
"29.4000","49.0035","0.0346"
"30.8000","51.3368","0.0347"
"32.2000","53.6700","0.0346"
"33.6000","56.0035","0.0353"
"35.0000","58.3367","0.0359"
"36.4000","60.6704","0.0363"
"37.8000","63.0032","0.0368"
"39.2000","65.3368","0.0371"
"40.6000","67.6701","0.0375"
"42.0000","70.0035","0.0379"
"43.4000","72.3367","0.0382"
"44.8000","74.6701","0.0385"
"46.2000","77.0033","0.0387"
"47.6000","79.3368","0.0388"
"49.0000","81.6700","0.0383"
"50.4000","84.0035","0.0384"
"51.8000","86.3368","0.0390"
"53.2000","88.6701","0.0396"
"54.6000","91.0032","0.0400"
"56.0000","93.3369","0.0404"
"57.4000","95.6700","0.0408"
"58.8000","98.0036","0.0412"
"60.2000","100.3365","0.0415"
"61.6000","102.6701","0.0416"
"63.0000","105.0033","0.0411"
"64.4000","107.3367","0.0415"
"65.8000","109.6700","0.0420"
"67.2000","112.0035","0.0426"
"68.6000","114.3367","0.0431"
"70.0000","116.6701","0.0436"
"71.4000","119.0032","0.0442"
"72.8000","121.3369","0.0447"
"74.2000","123.6700","0.0453"
"75.6000","126.0034","0.0459"
"77.0000","128.3366","0.0465"
"78.4000","130.6700","0.0471"
"79.8000","133.0033","0.0474"
"81.2000","135.3368","0.0473"
"82.6000","137.6700","0.0462"
"84.0000","140.0034","0.0461"
"85.4000","142.3368","0.0463"
"86.8000","144.6701","0.0470"
"88.2000","147.0033","0.0478"
"89.6000","149.3368","0.0486"
"91.0000","151.6700","0.0494"
"92.4000","154.0034","0.0500"
"93.8000","156.3365","0.0505"
"95.2000","158.6701","0.0505"
"96.6000","161.0034","0.0494"
"98.0000","163.3366","0.0475"
"99.4000","165.6701","0.0472"
"100.8000","168.0034","0.0475"
"102.2000","170.3365","0.0480"
"103.6000","172.6702","0.0489"
"105.0000","175.0033","0.0500"
"106.4000","177.3368","0.0511"
"107.8000","179.6700","0.0517"
"109.2000","182.0034","0.0515"
"110.6000","184.3366","0.0470"
"112.0000","186.6700","0.0481"
"113.4000","189.0033","0.0491"
"114.8000","191.3368","0.0500"
"116.2000","193.6700","0.0505"
"117.6000","196.0034","0.0499"
"119.0000","198.3366","0.0501"
"120.4000","200.6701","0.0511"
"121.8000","203.0033","0.0521"
"123.2000","205.3368","0.0531"
"124.6000","207.6700","0.0540"
"126.0000","210.0036","0.0548"
"127.4000","212.3365","0.0555"
"128.8000","214.6701","0.0561"
"130.2000","217.0033","0.0569"
"131.6000","219.3366","0.0574"
"133.0000","221.6700","0.0570"
"134.4000","224.0034","0.0561"
"135.8000","226.3365","0.0558"
"137.2000","228.6702","0.0563"
"138.6000","231.0032","0.0570"
"140.0000","233.3368","0.0578"
"141.4000","235.6700","0.0586"
"142.8000","238.0034","0.0595"
"144.2000","240.3366","0.0603"
"145.6000","242.6700","0.0611"
"147.0000","245.0033","0.0618"
"148.4000","247.3368","0.0625"
"149.8000","249.6700","0.0632"
"151.2000","252.0036","0.0638"
"152.6000","254.3367","0.0642"
"154.0000","256.6701","0.0638"
"155.4000","259.0033","0.0643"
"156.8000","261.3369","0.0657"
"158.2000","263.6700","0.0670"
"159.6000","266.0035","0.0678"
"161.0000","268.3366","0.0683"
"162.4000","270.6701","0.0670"
"163.8000","273.0035","0.0639"
"165.2000","275.3367","0.0623"
"166.6000","277.6701","0.0633"
"168.0000","280.0034","0.0655"
"169.4000","282.3366","0.0674"
"170.8000","284.6702","0.0683"
"172.2000","287.0032","0.0686"
"173.6000","289.3369","0.0692"
"175.0000","291.6699","0.0693"
"176.4000","294.0035","0.0666"
"177.8000","296.3366","0.0652"
"179.2000","298.6701","0.0653"
"180.6000","301.0034","0.0659"
"182.0000","303.3369","0.0665"
"183.4000","305.6699","0.0673"
"184.8000","308.0034","0.0681"
"186.2000","310.3367","0.0687"
"187.6000","312.6701","0.0688"
"189.0000","315.0033","0.0687"
"190.4000","317.3367","0.0690"
"191.8000","319.6700","0.0695"
"193.2000","322.0035","0.0698"
"194.6000","324.3366","0.0700"
"196.0000","326.6700","0.0698"
"197.4000","329.0034","0.0700"
"198.8000","331.3366","0.0710"
"200.2000","333.6701","0.0726"
"201.6000","336.0033","0.0745"
"203.0000","338.3366","0.0763"
"204.4000","340.6702","0.0776"
"205.8000","343.0031","0.0781"
"207.2000","345.3367","0.0779"
"208.6000","347.6701","0.0793"
"210.0000","350.0034","0.0807"
"211.4000","352.3366","0.0821"
"212.8000","354.6701","0.0835"
"214.2000","357.0033","0.0848"
"215.6000","359.3367","0.0859"
"217.0000","361.6700","0.0869"
"218.4000","364.0034","0.0877"
"219.8000","366.3369","0.0883"
"221.2000","368.6701","0.0890"
"222.6000","371.0033","0.0897"
"224.0000","373.3367","0.0903"
"225.4000","375.6700","0.0908"
"226.8000","378.0034","0.0910"
"228.2000","380.3366","0.0913"
"229.6000","382.6701","0.0913"
"231.0000","385.0034","0.0911"
"232.4000","387.3368","0.0913"
"233.8000","389.6700","0.0913"
"235.2000","392.0034","0.0899"
"236.6000","394.3366","0.0901"
"238.0000","396.6702","0.0911"
"239.4000","399.0031","0.0930"
"240.8000","401.3369","0.0951"
"242.2000","403.6700","0.0964"
"243.6000","406.0034","0.0980"
"245.0000","408.3368","0.0992"
"246.4000","410.6701","0.1003"
"247.8000","413.0034","0.1009"
"249.2000","415.3368","0.0965"
"250.6000","417.6701","0.0893"
"252.0000","420.0034","0.0899"
"253.4000","422.3366","0.0921"
"254.8000","424.6701","0.0942"
"256.2000","427.0033","0.0967"
"257.6000","429.3368","0.0992"
"259.0000","431.6700","0.1015"
"260.4000","434.0035","0.1033"
"261.8000","436.3366","0.1046"
"263.2000","438.6700","0.1049"
"264.6000","441.0034","0.1055"
"266.0000","443.3368","0.1065"
"267.4000","445.6701","0.1065"
"268.8000","448.0034","0.1074"
"270.2000","450.3365","0.1083"
"271.6000","452.6701","0.1092"
"273.0000","455.0033","0.1099"
"274.4000","457.3368","0.1102"
"275.8000","459.6700","0.1108"
"277.2000","462.0034","0.1125"
"278.6000","464.3366","0.1142"
"280.0000","466.6701","0.1154"
"281.4000","469.0033","0.1150"
"282.8000","471.3368","0.1125"
"284.2000","473.6700","0.1134"
"285.6000","476.0034","0.1158"
"287.0000","478.3366","0.1185"
"288.4000","480.6701","0.1215"
"289.8000","483.0033","0.1242"
"291.2000","485.3368","0.1265"
"292.6000","487.6700","0.1284"
"294.0000","490.0036","0.1301"
"295.4000","492.3366","0.1314"
"296.8000","494.6700","0.1319"
"298.2000","497.0034","0.1323"
"299.6000","499.3366","0.1329"
"301.0000","501.6699","0.1336"
"302.4000","504.0034","0.1341"
"303.8000","506.3367","0.1348"
"305.2000","508.6702","0.1354"
"306.6000","511.0031","0.1365"
"308.0000","513.3367","0.1374"
"309.4000","515.6700","0.1374"
"310.8000","518.0034","0.1356"
"312.2000","520.3365","0.1275"
"313.6000","522.6700","0.1241"
"315.0000","525.0032","0.1228"
"316.4000","527.3369","0.1177"
"317.8000","529.6699","0.1162"
"319.2000","532.0034","0.1178"
"320.6000","534.3367","0.1187"
"322.0000","536.6700","0.1171"
"323.4000","539.0032","0.1043"
"324.8000","541.3369","0.0935"
"326.2000","543.6699","0.0977"
"327.6000","546.0035","0.1041"
"329.0000","548.3365","0.1113"
"330.4000","550.6700","0.1187"
"331.8000","553.0034","0.1262"
"333.2000","555.3365","0.1335"
"334.6000","557.6700","0.1405"
"336.0000","560.0032","0.1466"
"337.4000","562.3365","0.1523"
"338.8000","564.6702","0.1570"
"340.2000","567.0034","0.1611"
"341.6000","569.3367","0.1644"
"343.0000","571.6699","0.1673"
"344.4000","574.0035","0.1696"
"345.8000","576.3365","0.1716"
"347.2000","578.6702","0.1733"
"348.6000","581.0032","0.1749"
"350.0000","583.3369","0.1762"
"351.4000","585.6699","0.1773"
"352.8000","588.0034","0.1784"
"354.2000","590.3367","0.1795"
"355.6000","592.6699","0.1808"
"357.0000","595.0032","0.1822"
"358.4000","597.3367","0.1836"
"359.8000","599.6699","0.1852"
"361.2000","602.0035","0.1867"
"362.6000","604.3365","0.1883"
"364.0000","606.6699","0.1897"
"365.4000","609.0034","0.1909"
"366.8000","611.3366","0.1918"
"368.2000","613.6700","0.1078"
"369.6000","616.0034","0.0894"
"371.0000","618.3365","0.0928"
"372.4000","620.6702","0.0982"
"373.8000","623.0032","0.1039"
"375.2000","625.3369","0.1097"
"376.6000","627.6699","0.1155"
"378.0000","630.0034","0.1210"
"379.4000","632.3365","0.1261"
"380.8000","634.6702","0.1304"
"382.2000","637.0031","0.1339"
"383.6000","639.3367","0.1363"
"385.0000","641.6697","0.1376"
"386.4000","644.0034","0.1377"
"387.8000","646.3367","0.1366"
"389.2000","648.6700","0.1352"
"390.6000","651.0032","0.1352"
"392.0000","653.3366","0.1364"
"392.8680","654.7836","0.0801"

File: Braided - 2.csv
Time,Displacement,Force
(s),(mm),(kN)
"0.0000","0.0000","-0.0005"
"1.1000","1.8363","0.0084"
"2.2000","3.6699","0.0104"
"3.3000","5.5035","0.0125"
"4.4000","7.3365","0.0147"
"5.5000","9.1697","0.0162"
"6.6000","11.0031","0.0175"
"7.7000","12.8368","0.0184"
"8.8000","14.6697","0.0195"
"9.9000","16.5032","0.0204"
"11.0000","18.3365","0.0211"
"12.1000","20.1700","0.0216"
"13.2000","22.0033","0.0220"
"14.3000","23.8363","0.0220"
"15.4000","25.6701","0.0223"
"16.5000","27.5032","0.0225"
"17.6000","29.3368","0.0226"
"18.7000","31.1696","0.0230"
"19.8000","33.0033","0.0236"
"20.9000","34.8365","0.0241"
"22.0000","36.6699","0.0248"
"23.1000","38.5031","0.0253"
"24.2000","40.3365","0.0254"
"25.3000","42.1703","0.0250"
"26.4000","44.0031","0.0248"
"27.5000","45.8365","0.0252"
"28.6000","47.6699","0.0256"
"29.7000","49.5035","0.0259"
"30.8000","51.3365","0.0261"
"31.9000","53.1697","0.0263"
"33.0000","55.0033","0.0266"
"34.1000","56.8367","0.0268"
"35.2000","58.6699","0.0269"
"36.3000","60.5031","0.0272"
"37.4000","62.3367","0.0275"
"38.5000","64.1700","0.0276"
"39.6000","66.0033","0.0277"
"40.7000","67.8364","0.0272"
"41.8000","69.6700","0.0253"
"42.9000","71.5033","0.0250"
"44.0000","73.3367","0.0252"
"45.1000","75.1699","0.0254"
"46.2000","77.0032","0.0256"
"47.3000","78.8367","0.0258"
"48.4000","80.6700","0.0261"
"49.5000","82.5031","0.0266"
"50.6000","84.3367","0.0271"
"51.7000","86.1700","0.0276"
"52.8000","88.0032","0.0279"
"53.9000","89.8364","0.0282"
"55.0000","91.6700","0.0281"
"56.1000","93.5033","0.0237"
"57.2000","95.3365","0.0236"
"58.3000","97.1699","0.0243"
"59.4000","99.0032","0.0253"
"60.5000","100.8368","0.0261"
"61.6000","102.6699","0.0268"
"62.7000","104.5032","0.0276"
"63.8000","106.3365","0.0283"
"64.9000","108.1700","0.0289"
"66.0000","110.0033","0.0294"
"67.1000","111.8363","0.0300"
"68.2000","113.6700","0.0304"
"69.3000","115.5032","0.0309"
"70.4000","117.3367","0.0314"
"71.5000","119.1696","0.0319"
"72.6000","121.0033","0.0324"
"73.7000","122.8365","0.0329"
"74.8000","124.6700","0.0333"
"75.9000","126.5030","0.0336"
"77.0000","128.3366","0.0341"
"78.1000","130.1701","0.0345"
"79.2000","132.0032","0.0347"
"80.3000","133.8365","0.0347"
"81.4000","135.6698","0.0338"
"82.5000","137.5034","0.0331"
"83.6000","139.3365","0.0335"
"84.7000","141.1697","0.0341"
"85.8000","143.0032","0.0347"
"86.9000","144.8366","0.0348"
"88.0000","146.6698","0.0347"
"89.1000","148.5030","0.0347"
"90.2000","150.3366","0.0349"
"91.3000","152.1700","0.0352"
"92.4000","154.0032","0.0346"
"93.5000","155.8365","0.0331"
"94.6000","157.6700","0.0343"
"95.7000","159.5033","0.0354"
"96.8000","161.3365","0.0361"
"97.9000","163.1697","0.0368"
"99.0000","165.0033","0.0372"
"100.1000","166.8366","0.0376"
"101.2000","168.6698","0.0381"
"102.3000","170.5030","0.0384"
"103.4000","172.3365","0.0385"
"104.5000","174.1700","0.0384"
"105.6000","176.0032","0.0382"
"106.7000","177.8364","0.0382"
"107.8000","179.6700","0.0383"
"108.9000","181.5033","0.0377"
"110.0000","183.3365","0.0381"
"111.1000","185.1697","0.0387"
"112.2000","187.0031","0.0393"
"113.3000","188.8368","0.0399"
"114.4000","190.6698","0.0402"
"115.5000","192.5032","0.0399"
"116.6000","194.3366","0.0404"
"117.7000","196.1701","0.0411"
"118.8000","198.0033","0.0418"
"119.9000","199.8362","0.0423"
"121.0000","201.6700","0.0425"
"122.1000","203.5032","0.0395"
"123.2000","205.3368","0.0402"
"124.3000","207.1696","0.0409"
"125.4000","209.0033","0.0415"
"126.5000","210.8366","0.0403"
"127.6000","212.6700","0.0392"
"128.7000","214.5030","0.0407"
"129.8000","216.3365","0.0418"
"130.9000","218.1701","0.0423"
"132.0000","220.0032","0.0424"
"133.1000","221.8364","0.0426"
"134.2000","223.6698","0.0429"
"135.3000","225.5034","0.0430"
"136.4000","227.3365","0.0430"
"137.5000","229.1697","0.0432"
"138.6000","231.0032","0.0431"
"139.7000","232.8365","0.0427"
"140.8000","234.6700","0.0423"
"141.9000","236.5029","0.0424"
"143.0000","238.3366","0.0429"
"144.1000","240.1700","0.0434"
"145.2000","242.0032","0.0438"
"146.3000","243.8364","0.0436"
"147.4000","245.6700","0.0436"
"148.5000","247.5034","0.0442"
"149.6000","249.3365","0.0447"
"150.7000","251.1697","0.0450"
"151.8000","253.0033","0.0445"
"152.9000","254.8366","0.0437"
"154.0000","256.6700","0.0440"
"155.1000","258.5029","0.0448"
"156.2000","260.3366","0.0456"
"157.3000","262.1700","0.0462"
"158.4000","264.0034","0.0468"
"159.5000","265.8364","0.0471"
"160.6000","267.6700","0.0470"
"161.7000","269.5034","0.0465"
"162.8000","271.3363","0.0464"
"163.9000","273.1698","0.0466"
"165.0000","275.0030","0.0470"
"166.1000","276.8368","0.0463"
"167.2000","278.6697","0.0463"
"168.3000","280.5031","0.0452"
"169.4000","282.3365","0.0441"
"170.5000","284.1700","0.0432"
"171.6000","286.0033","0.0351"
"172.7000","287.8362","0.0365"
"173.8000","289.6700","0.0372"
"174.9000","291.5033","0.0363"
"176.0000","293.3365","0.0358"
"177.1000","295.1696","0.0352"
"178.2000","297.0033","0.0366"
"179.3000","298.8366","0.0385"
"180.4000","300.6700","0.0401"
"181.5000","302.5030","0.0412"
"182.6000","304.3365","0.0414"
"183.7000","306.1702","0.0403"
"184.8000","308.0033","0.0408"
"185.9000","309.8365","0.0420"
"187.0000","311.6698","0.0429"
"188.1000","313.5034","0.0423"
"189.2000","315.3366","0.0413"
"190.3000","317.1697","0.0417"
"191.4000","319.0033","0.0431"
"192.5000","320.8366","0.0447"
"193.6000","322.6700","0.0463"
"194.7000","324.5030","0.0476"
"195.8000","326.3366","0.0487"
"196.9000","328.1700","0.0500"
"198.0000","330.0031","0.0512"
"199.1000","331.8363","0.0516"
"200.2000","333.6700","0.0490"
"201.3000","335.5034","0.0478"
"202.4000","337.3364","0.0486"
"203.5000","339.1697","0.0496"
"204.6000","341.0031","0.0495"
"205.7000","342.8367","0.0492"
"206.8000","344.6700","0.0499"
"207.9000","346.5030","0.0510"
"209.0000","348.3366","0.0520"
"210.1000","350.1701","0.0529"
"211.2000","352.0033","0.0536"
"212.3000","353.8364","0.0543"
"213.4000","355.6700","0.0553"
"214.5000","357.5033","0.0561"
"215.6000","359.3366","0.0570"
"216.7000","361.1697","0.0579"
"217.8000","363.0030","0.0586"
"218.9000","364.8368","0.0590"
"220.0000","366.6697","0.0584"
"221.1000","368.5031","0.0536"
"222.2000","370.3365","0.0533"
"223.3000","372.1700","0.0540"
"224.4000","374.0033","0.0548"
"225.5000","375.8363","0.0554"
"226.6000","377.6701","0.0560"
"227.7000","379.5033","0.0564"
"228.8000","381.3366","0.0566"
"229.9000","383.1695","0.0569"
"231.0000","385.0033","0.0571"
"232.1000","386.8366","0.0573"
"233.2000","388.6698","0.0574"
"234.3000","390.5030","0.0569"
"235.4000","392.3365","0.0547"
"236.5000","394.1701","0.0519"
"237.6000","396.0030","0.0453"
"238.7000","397.8364","0.0451"
"239.8000","399.6698","0.0462"
"240.9000","401.5034","0.0475"
"242.0000","403.3366","0.0488"
"243.1000","405.1696","0.0500"
"244.2000","407.0033","0.0512"
"245.3000","408.8366","0.0522"
"246.4000","410.6700","0.0533"
"247.5000","412.5029","0.0545"
"248.6000","414.3366","0.0557"
"249.7000","416.1701","0.0563"
"250.8000","418.0033","0.0561"
"251.9000","419.8365","0.0543"
"253.0000","421.6698","0.0551"
"254.1000","423.5034","0.0566"
"255.2000","425.3365","0.0582"
"256.3000","427.1698","0.0600"
"257.4000","429.0033","0.0617"
"258.5000","430.8366","0.0634"
"259.6000","432.6698","0.0651"
"260.7000","434.5030","0.0666"
"261.8000","436.3366","0.0680"
"262.9000","438.1701","0.0694"
"264.0000","440.0031","0.0706"
"265.1000","441.8364","0.0716"
"266.2000","443.6700","0.0725"
"267.3000","445.5033","0.0731"
"268.4000","447.3363","0.0733"
"269.5000","449.1698","0.0721"
"270.6000","451.0031","0.0692"
"271.7000","452.8369","0.0696"
"272.8000","454.6697","0.0712"
"273.9000","456.5030","0.0731"
"275.0000","458.3365","0.0747"
"276.1000","460.1701","0.0762"
"277.2000","462.0034","0.0774"
"278.3000","463.8363","0.0780"
"279.4000","465.6699","0.0778"
"280.5000","467.5034","0.0756"
"281.6000","469.3366","0.0741"
"282.7000","471.1695","0.0747"
"283.8000","473.0033","0.0755"
"284.9000","474.8365","0.0764"
"286.0000","476.6698","0.0765"
"287.1000","478.5030","0.0747"
"288.2000","480.3363","0.0747"
"289.3000","482.1701","0.0743"
"290.4000","484.0031","0.0718"
"291.5000","485.8366","0.0714"
"292.6000","487.6698","0.0734"
"293.7000","489.5034","0.0759"
"294.8000","491.3365","0.0786"
"295.9000","493.1697","0.0811"
"297.0000","495.0033","0.0835"
"298.1000","496.8366","0.0857"
"299.2000","498.6697","0.0875"
"300.3000","500.5028","0.0893"
"301.4000","502.3365","0.0908"
"302.5000","504.1699","0.0922"
"303.6000","506.0033","0.0934"
"304.7000","507.8363","0.0943"
"305.8000","509.6699","0.0951"
"306.9000","511.5033","0.0951"
"307.4920","512.4902","0.0486"